This file was generated using SpermQ_Evaluator, a java application by Jan Niklas Hansen (© 2017 - 2020) (for credits see: https://github.com/IIIImaging/SpermQ_Evaluator).
Date of processing:	2021-02-15	21:12:38

This file contains the kymograph results for the parameter max Intensity in head:
	Rabbit delta 78 heterozygote022_SpQP_spq_210215_210348
minimum	4.034466
maximum	155.320251
average	94.900406
median	103.553078
time
0.000000	78.983917
0.005000	60.827690
0.010000	61.481079
0.015000	44.256195
0.020000	62.474846
0.025000	56.588989
0.030000	84.745201
0.035000	96.657852
0.040000	102.684471
0.045000	104.998856
0.050000	104.127670
0.055000	104.412224
0.060000	101.991447
0.065000	83.691818
0.070000	52.634094
0.075000	45.413662
0.080000	56.423145
0.085000	61.228104
0.090000	55.767864
0.095000	85.792831
0.100000	73.189270
0.105000	87.232208
0.110000	65.754860
0.115000	77.082153
0.120000	62.578617
0.125000	53.911655
0.130000	33.018669
0.135000	36.074997
0.140000	65.983788
0.145000	83.156700
0.150000	89.373970
0.155000	96.827988
0.160000	102.046661
0.165000	106.039131
0.170000	86.301224
0.175000	74.447823
0.180000	49.029015
0.185000	51.360329
0.190000	65.307739
0.195000	64.910057
0.200000	86.954803
0.205000	92.883835
0.210000	93.412086
0.215000	104.525322
0.220000	104.518051
0.225000	93.723152
0.230000	81.922676
0.235000	82.203690
0.240000	60.725811
0.245000	50.048492
0.250000	48.101810
0.255000	65.003281
0.260000	84.302582
0.265000	101.728767
0.270000	81.228638
0.275000	107.991966
0.280000	107.529404
0.285000	90.212166
0.290000	64.983986
0.295000	28.938679
0.300000	68.180573
0.305000	68.437180
0.310000	94.755379
0.315000	99.184486
0.320000	102.503181
0.325000	103.990898
0.330000	112.166397
0.335000	108.841133
0.340000	105.712959
0.345000	100.662064
0.350000	94.170097
0.355000	94.298927
0.360000	77.513672
0.365000	64.988335
0.370000	44.320480
0.375000	36.757320
0.380000	60.608547
0.385000	80.909706
0.390000	86.602394
0.395000	100.590935
0.400000	72.866524
0.405000	66.874153
0.410000	139.957520
0.415000	72.336830
0.420000	91.579529
0.425000	81.610298
0.430000	106.737480
0.435000	91.547081
0.440000	103.982765
0.445000	111.498016
0.450000	108.507675
0.455000	81.278633
0.460000	103.295296
0.465000	100.726402
0.470000	88.322792
0.475000	73.796120
0.480000	155.320251
0.485000	138.252853
0.490000	58.124451
0.495000	70.678108
0.500000	72.108810
0.505000	94.606941
0.510000	103.553078
0.515000	99.456680
0.520000	73.730278
0.525000	6.342428
0.530000	7.942399
0.535000	76.265190
0.540000	92.271988
0.545000	111.714325
0.550000	111.360565
0.555000	112.412170
0.560000	114.229149
0.565000	111.526474
0.570000	113.251213
0.575000	90.066521
0.580000	86.856949
0.585000	97.984283
0.590000	70.269485
0.595000	116.326393
0.600000	102.371307
0.605000	137.965759
0.610000	
0.615000	85.164970
0.620000	70.840675
0.625000	6.266194
0.630000	5.234802
0.635000	42.425854
0.640000	65.518059
0.645000	100.839027
0.650000	114.704559
0.655000	115.699684
0.660000	116.185791
0.665000	115.956169
0.670000	118.663033
0.675000	114.803902
0.680000	114.321510
0.685000	115.282867
0.690000	119.043121
0.695000	112.920815
0.700000	114.324608
0.705000	105.944183
0.710000	93.069321
0.715000	66.032028
0.720000	108.718185
0.725000	101.539604
0.730000	110.207626
0.735000	126.873756
0.740000	5.567317
0.745000	86.160583
0.750000	86.190903
0.755000	4.797393
0.760000	4.921606
0.765000	102.894539
0.770000	45.999554
0.775000	113.492210
0.780000	114.716599
0.785000	114.112251
0.790000	114.031731
0.795000	111.138512
0.800000	108.240646
0.805000	117.987801
0.810000	116.780647
0.815000	114.276215
0.820000	106.661194
0.825000	83.476913
0.830000	88.671730
0.835000	86.382248
0.840000	6.699798
0.845000	81.262917
0.850000	103.665230
0.855000	5.175146
0.860000	6.331897
0.865000	95.744926
0.870000	4.034466
0.875000	4.707451
0.880000	92.882271
0.885000	112.696075
0.890000	117.389359
0.895000	110.931084
0.900000	103.365150
0.905000	119.317116
0.910000	108.710686
0.915000	120.019211
0.920000	114.541351
0.925000	108.135941
0.930000	106.096992
0.935000	111.807526
0.940000	100.591553
0.945000	116.671150
0.950000	87.744835
0.955000	96.788857
0.960000	100.826256
0.965000	111.121033
0.970000	106.038567
0.975000	99.108070
0.980000	99.863472
0.985000	4.624296
0.990000	107.683075
0.995000	107.546913
1.000000	107.767128
1.005000	110.690170
1.010000	111.069275
1.015000	109.159286
1.020000	93.116608
1.025000	116.458611
1.030000	113.131363
1.035000	117.318573
1.040000	4.526825
1.045000	104.949875
1.050000	120.302818
1.055000	5.286421
1.060000	105.940186
1.065000	97.103104
1.070000	103.276192
1.075000	107.464607
1.080000	108.388573
1.085000	111.508324
1.090000	108.145172
1.095000	101.501923
1.100000	95.941582
1.105000	97.441147
1.110000	109.434402
1.115000	106.841187
1.120000	109.892105
1.125000	111.836456
1.130000	108.597870
1.135000	114.624550
1.140000	111.980278
1.145000	112.095337
1.150000	113.079651
1.155000	110.652802
1.160000	103.666664
1.165000	119.494568
1.170000	7.349392
1.175000	105.339127
1.180000	97.214180
1.185000	101.443565
1.190000	96.146713
1.195000	106.798241
1.200000	109.731262
1.205000	107.190994
1.210000	99.074448
1.215000	91.531647
1.220000	93.707451
1.225000	107.528809
1.230000	106.859535
1.235000	110.973045
1.240000	105.641121
1.245000	114.323715
1.250000	108.911629
1.255000	113.997063
1.260000	112.614159
1.265000	115.901001
1.270000	115.743500
1.275000	120.082367
1.280000	119.282738
1.285000	107.385574
1.290000	101.373459
1.295000	101.131897
1.300000	102.448845
1.305000	91.354355
1.310000	100.447655
1.315000	96.154083
1.320000	99.673920
1.325000	92.254730
1.330000	94.835609
1.335000	102.441444
1.340000	100.773544
1.345000	104.605148
1.350000	109.355019
1.355000	108.428604
1.360000	116.478889
1.365000	112.484795
1.370000	114.678902
1.375000	113.451500
1.380000	117.921227
1.385000	116.526962
1.390000	126.577049
1.395000	116.211182
1.400000	105.508881
1.405000	104.850739
1.410000	99.903069
1.415000	96.077522
1.420000	94.431786
1.425000	98.062317
1.430000	105.421288
1.435000	100.899696
1.440000	56.630123
1.445000	95.819923
1.450000	101.058205
1.455000	99.286308
1.460000	103.184265
1.465000	111.876007
1.470000	108.219780
1.475000	104.170357
1.480000	101.682076
1.485000	107.126770
1.490000	108.950081
1.495000	110.608231
1.500000	114.035744
1.505000	110.549347
1.510000	107.808868
1.515000	107.595245
1.520000	106.556641
1.525000	98.862511
1.530000	41.231415
1.535000	100.403656
1.540000	97.822952
1.545000	99.104454
1.550000	98.099426
1.555000	95.496094
1.560000	102.543816
1.565000	98.105080
1.570000	102.994164
1.575000	101.777779
1.580000	103.286583
1.585000	107.832123
1.590000	102.864182
1.595000	108.555893
1.600000	107.826202
1.605000	105.647026
1.610000	108.465965
1.615000	110.253227
1.620000	111.464493
1.625000	111.992432
1.630000	111.203125
1.635000	112.424515
1.640000	108.680962
1.645000	105.580559
1.650000	103.974625
1.655000	98.457619
1.660000	104.331757
1.665000	100.529747
1.670000	98.441727
1.675000	101.201134
1.680000	101.466881
1.685000	99.964951
1.690000	102.185829
1.695000	110.910164
1.700000	102.108307
1.705000	111.220131
1.710000	114.354202
1.715000	108.292938
1.720000	110.438362
1.725000	106.941788
1.730000	109.034042
1.735000	104.404320
1.740000	108.926613
1.745000	112.848389
1.750000	109.262093
1.755000	104.080429
1.760000	108.024147
1.765000	104.157494
1.770000	105.074265
1.775000	105.390480
1.780000	98.656403
1.785000	95.508018
1.790000	105.153893
1.795000	101.833412
1.800000	105.225914
1.805000	102.775330
1.810000	111.070442
1.815000	109.526054
1.820000	105.609421
1.825000	103.666664
1.830000	109.274506
1.835000	107.834808
1.840000	106.561714
1.845000	107.583855
1.850000	105.313004
1.855000	102.776955
1.860000	112.349831
1.865000	110.928497
1.870000	109.166771
1.875000	106.485985
1.880000	104.655846
1.885000	102.667595
1.890000	106.561073
1.895000	102.762405
1.900000	100.721596
1.905000	100.359688
1.910000	101.056091
1.915000	97.902649
1.920000	106.808502
1.925000	106.048126
1.930000	103.985825
1.935000	106.057190
1.940000	106.744896
1.945000	112.444443
1.950000	109.303474
1.955000	113.475784
1.960000	108.297508
1.965000	107.025360
1.970000	109.672997
1.975000	107.327362
1.980000	109.111115
1.985000	107.113037
1.990000	110.759438
1.995000	107.128311
