This file was generated using SpermQ_Evaluator, a java application by Jan Niklas Hansen (© 2017 - 2020) (for credits see: https://github.com/IIIImaging/SpermQ_Evaluator).
Date of processing:	2021-02-15	21:12:13

This file contains the kymograph results for the parameter max Intensity in head:
	Rabbit delta 78 heterozygote019_SpQP_spq_210215_205359
minimum	2.306896
maximum	236.354431
average	54.312729
median	9.127947
time
0.000000	69.160362
0.005000	39.657001
0.010000	38.349628
0.015000	50.219959
0.020000	152.189697
0.025000	149.531403
0.030000	144.410645
0.035000	39.830357
0.040000	43.452835
0.045000	45.601383
0.050000	52.355881
0.055000	29.695471
0.060000	44.653034
0.065000	42.071411
0.070000	26.223799
0.075000	41.473095
0.080000	47.080341
0.085000	34.007164
0.090000	27.125387
0.095000	24.475248
0.100000	25.533691
0.105000	44.404613
0.110000	40.890747
0.115000	31.481768
0.120000	46.949665
0.125000	37.717918
0.130000	22.513790
0.135000	34.668236
0.140000	25.605194
0.145000	39.898365
0.150000	30.348700
0.155000	7.267477
0.160000	5.801119
0.165000	10.621483
0.170000	6.122382
0.175000	
0.180000	5.453637
0.185000	5.356541
0.190000	4.564628
0.195000	7.509812
0.200000	4.917510
0.205000	6.049314
0.210000	7.443255
0.215000	5.430210
0.220000	14.948563
0.225000	5.292793
0.230000	4.811712
0.235000	4.828157
0.240000	
0.245000	5.613463
0.250000	5.537920
0.255000	7.300778
0.260000	3.829870
0.265000	4.769786
0.270000	6.407486
0.275000	2.678481
0.280000	4.367884
0.285000	
0.290000	
0.295000	5.458929
0.300000	6.129536
0.305000	
0.310000	7.921942
0.315000	6.084999
0.320000	5.759832
0.325000	3.674406
0.330000	4.932941
0.335000	3.972284
0.340000	5.759142
0.345000	4.211502
0.350000	4.546428
0.355000	5.057212
0.360000	
0.365000	
0.370000	2.868182
0.375000	4.497532
0.380000	5.166059
0.385000	6.483811
0.390000	6.811229
0.395000	6.051335
0.400000	6.878059
0.405000	5.968411
0.410000	5.782272
0.415000	4.926299
0.420000	
0.425000	8.107404
0.430000	4.536597
0.435000	6.795217
0.440000	5.723263
0.445000	5.163051
0.450000	2.887911
0.455000	5.066282
0.460000	5.299656
0.465000	6.008523
0.470000	6.389065
0.475000	5.231937
0.480000	7.946393
0.485000	5.081045
0.490000	6.547275
0.495000	8.114561
0.500000	3.430053
0.505000	
0.510000	5.815032
0.515000	
0.520000	2.962626
0.525000	4.637841
0.530000	6.096305
0.535000	4.672614
0.540000	3.788822
0.545000	
0.550000	4.813468
0.555000	
0.560000	3.346835
0.565000	9.579078
0.570000	7.793939
0.575000	3.929570
0.580000	7.894830
0.585000	3.078919
0.590000	5.430666
0.595000	6.257464
0.600000	5.605115
0.605000	
0.610000	6.316102
0.615000	5.377032
0.620000	3.696675
0.625000	4.249424
0.630000	7.210238
0.635000	7.278463
0.640000	6.986820
0.645000	5.425193
0.650000	6.899311
0.655000	6.830877
0.660000	5.791378
0.665000	6.793794
0.670000	4.975151
0.675000	4.917337
0.680000	
0.685000	3.774266
0.690000	4.384899
0.695000	5.724882
0.700000	
0.705000	4.424623
0.710000	6.873177
0.715000	4.737153
0.720000	4.143770
0.725000	9.127947
0.730000	6.307193
0.735000	3.808474
0.740000	5.980754
0.745000	4.597944
0.750000	4.658227
0.755000	5.801961
0.760000	6.635070
0.765000	6.095894
0.770000	7.787179
0.775000	7.180471
0.780000	7.270334
0.785000	6.419547
0.790000	6.428644
0.795000	5.263418
0.800000	55.507641
0.805000	36.671894
0.810000	68.344879
0.815000	
0.820000	115.082886
0.825000	
0.830000	
0.835000	55.351051
0.840000	
0.845000	67.307259
0.850000	144.798279
0.855000	63.420406
0.860000	
0.865000	63.789589
0.870000	55.542301
0.875000	111.592636
0.880000	47.056385
0.885000	160.345566
0.890000	179.508591
0.895000	194.679169
0.900000	192.358002
0.905000	167.378204
0.910000	195.464706
0.915000	183.890244
0.920000	81.763229
0.925000	204.323303
0.930000	138.498306
0.935000	154.909485
0.940000	88.145081
0.945000	127.842224
0.950000	191.538528
0.955000	154.383118
0.960000	37.528728
0.965000	83.949242
0.970000	185.269073
0.975000	124.627419
0.980000	69.500259
0.985000	96.137421
0.990000	130.005753
0.995000	111.704300
1.000000	137.857651
1.005000	135.020401
1.010000	202.397446
1.015000	147.991913
1.020000	63.279617
1.025000	69.555885
1.030000	86.358734
1.035000	188.252121
1.040000	203.737106
1.045000	195.701645
1.050000	212.840942
1.055000	215.870773
1.060000	197.175430
1.065000	190.565628
1.070000	201.368240
1.075000	206.875229
1.080000	198.993958
1.085000	196.479141
1.090000	217.260925
1.095000	217.935242
1.100000	216.876923
1.105000	217.095444
1.110000	216.270294
1.115000	213.119797
1.120000	213.620117
1.125000	208.972961
1.130000	206.564667
1.135000	180.039017
1.140000	176.439316
1.145000	178.778000
1.150000	152.674469
1.155000	140.305023
1.160000	163.347336
1.165000	173.978439
1.170000	147.684677
1.175000	172.070984
1.180000	177.478653
1.185000	208.546265
1.190000	
1.195000	114.627800
1.200000	193.369934
1.205000	118.519981
1.210000	115.630005
1.215000	140.440598
1.220000	80.186256
1.225000	53.160175
1.230000	50.460960
1.235000	58.977482
1.240000	38.901279
1.245000	8.650358
1.250000	7.902054
1.255000	
1.260000	8.395418
1.265000	6.331111
1.270000	5.704719
1.275000	4.847477
1.280000	78.759834
1.285000	39.661804
1.290000	6.041039
1.295000	35.709740
1.300000	30.875307
1.305000	5.053894
1.310000	64.718620
1.315000	38.582916
1.320000	4.407061
1.325000	9.669040
1.330000	15.902715
1.335000	6.457877
1.340000	3.276500
1.345000	7.697027
1.350000	
1.355000	5.322269
1.360000	6.146406
1.365000	8.342915
1.370000	4.987632
1.375000	7.801431
1.380000	3.368657
1.385000	3.752299
1.390000	3.789427
1.395000	4.141698
1.400000	
1.405000	7.415298
1.410000	
1.415000	6.665001
1.420000	4.714816
1.425000	5.200239
1.430000	5.060348
1.435000	4.190480
1.440000	4.350099
1.445000	3.238923
1.450000	
1.455000	
1.460000	
1.465000	
1.470000	6.771920
1.475000	4.972406
1.480000	4.164440
1.485000	8.259335
1.490000	10.859594
1.495000	6.163160
1.500000	
1.505000	4.658858
1.510000	2.306896
1.515000	4.379611
1.520000	3.374851
1.525000	3.835045
1.530000	5.273352
1.535000	6.282944
1.540000	
1.545000	5.422109
1.550000	6.595160
1.555000	3.686980
1.560000	5.473268
1.565000	
1.570000	4.549900
1.575000	6.386793
1.580000	5.507007
1.585000	
1.590000	16.876883
1.595000	6.718443
1.600000	4.333743
1.605000	5.353804
1.610000	7.151889
1.615000	4.162924
1.620000	4.316590
1.625000	5.486729
1.630000	3.811199
1.635000	4.414533
1.640000	4.806708
1.645000	8.862478
1.650000	5.421346
1.655000	3.734597
1.660000	5.425725
1.665000	5.685307
1.670000	7.815414
1.675000	4.539103
1.680000	6.871059
1.685000	4.043107
1.690000	4.196789
1.695000	6.191844
1.700000	4.333107
1.705000	5.345061
1.710000	5.839616
1.715000	6.872496
1.720000	40.113670
1.725000	49.724415
1.730000	52.808060
1.735000	74.061050
1.740000	35.118988
1.745000	51.222099
1.750000	26.387266
1.755000	71.902832
1.760000	115.535088
1.765000	50.679527
1.770000	72.051155
1.775000	52.180737
1.780000	40.069843
1.785000	41.576050
1.790000	67.947220
1.795000	67.565102
1.800000	101.209496
1.805000	116.218651
1.810000	118.598099
1.815000	91.926720
1.820000	120.010063
1.825000	119.803467
1.830000	70.144661
1.835000	49.507061
1.840000	90.679474
1.845000	90.885513
1.850000	97.098640
1.855000	91.158813
1.860000	63.618580
1.865000	90.692970
1.870000	83.243584
1.875000	110.860107
1.880000	117.451141
1.885000	51.984367
1.890000	75.198715
1.895000	80.072906
1.900000	36.790970
1.905000	43.088146
1.910000	99.505310
1.915000	134.748276
1.920000	227.410950
1.925000	112.658989
1.930000	236.354431
1.935000	234.915726
1.940000	81.517822
1.945000	127.533005
1.950000	113.401520
1.955000	106.835358
1.960000	102.893211
1.965000	104.552933
1.970000	106.918755
1.975000	106.161079
1.980000	114.995941
1.985000	118.800896
1.990000	52.039047
1.995000	66.157524
